Folder: yamoda-wiki/rawdata_examples

Note: rawdata_examples/Dryogenic.txt
10:43:25 03May2011,"Time (s)","LTS (K)","Cernox (K)","ADM temp (K)","SM temp (K)","ADM field (T)","SM field (T)","V_X (V)","V_Y (V)","V_X_2 (V)","V_Y_2 (V)"
10:43:35 03May2011,4.35937500E+0,0.00000000E+0,2.99304374E+2,4.78981996E+0,4.91175951E+0,0.00000000E+0,0.00000000E+0,1.59270000E-4,-3.97000000E-6,1.49975000E-3,4.99600000E-5
10:43:45 03May2011,1.54687500E+1,0.00000000E+0,2.99291790E+2,4.77505265E+0,4.89669624E+0,0.00000000E+0,0.00000000E+0,1.59293000E-4,-3.90500000E-6,1.49970000E-3,4.99500000E-5
10:43:53 03May2011,2.14218750E+1,0.00000000E+0,2.99291790E+2,4.76772173E+0,4.88734713E+0,0.00000000E+0,0.00000000E+0,1.59225000E-4,-3.84100000E-6,1.49960000E-3,4.99500000E-5

Note: rawdata_examples/Sweet16.txt
date	time	Control Temp (K)	Sample Temp 1 (K)	SampleTemp 2 (K)	B-Field (T)	Lock-In 1 Ch1 (V)	Lock-In 1 Ch2 (V)	Lock-In 2 Ch1 (V)	Lock-In 2 Ch2 (V)	Lock-In 3 Ch1 (V)	Lock-In 3 Ch2 (V)	Heater (%)	Needle Valve (%)	Current (A)	Voltage (V)
27.04.2011	10:23:21	4.923000	5.029000	323.100000	0.000000	0.000173405700	0.000001482673	0.000021480140	0.000000558797	4.800000000000	20.500000000000
27.04.2011	10:23:24	4.922000	5.025000	323.100000	0.000000	0.000173405700	0.000001490123	0.000021483870	0.000000558797	4.800000000000	20.500000000000
27.04.2011	10:23:27	4.916000	5.022000	323.100000	0.000000	0.000173405700	0.000001497574	0.000021483870	0.000000558797	4.800000000000	20.600000000000
27.04.2011	10:23:29	4.904000	5.016000	323.100000	0.000000	0.000173398300	0.000001490123	0.000021476410	0.000000558797	4.800000000000	20.600000000000

File: Pulverdiffraktometer.uxd
; G:\Roentgen Beispieldatei\SiO2.raw(Diffrac Plus V1.01 file) converted by XCH V1.0
_FILEVERSION=2
_SAMPLE='SiO2'
_+SAMPLE='mit SMC, div=0.1'
_SITE='Garching'
_USER='E21'
_SAMPLE_CHANGER_CODE=0
_ATTACHMENTS_CODE=0
_GONIOMETER_RADIUS=217.5
_FIXED_DIVSLIT=0.150000
_FIXED_SAMPLESLIT=1.000000
_FIXED_DETSLIT=1.000000
_MONOCHROMATOR=0
; None
_THIN_FILM='N'
_BETA_FILTER='N'
_FIXED_ANTISLIT=0.150000
_ANALYZER_CODE=1
; Graphite
_DATEMEASURED='06-May-2010 13:52:28'
_WL_UNIT='A'
_WL1=1.540600
_WL2=1.544390
_WL3=1.392220
_WLRATIO=0.500000
_ANODE='Cu'
; (Data for Range number 1)
_DRIVE='COUPLED'
_STEPTIME=3.000000
_STEPSIZE=0.020000
_STEPMODE='C'
_START=22
_THETA=11
_2THETA=22
_KHI=0.000000
_PHI=0.000000
_X=0.000000
_Y=0.000000
_Z=0.000000
_VARDIVERGENCE='V6.0'
_VARANTISCATTER='V6.0'
_HV=0.000000
_GAIN=0.000000
_LLD=0.000000
_ULD=0.000000
_DETECTORSLIT='in'
_AUX1=0.000000
_AUX2=0.000000
_AUX3=0.000000
_TIMESTARTED=8.000000
_TEMP_RATE=-1.000000
_TEMP_DELAY=-1.000000
_RANGE_WL=1.540600
_3DPLANE=0
_2THETACPS
22.0000	4.6667
22.0200	5.6667
22.0400	4.6667
22.0600	3.3333
22.0800	4.3333
22.1000	2.3333
22.1200	4.6667
22.1400	5.0000
22.1600	3.0000
22.1800	3.3333
22.2000	3.0000
22.2200	5.3333
22.2400	4.0000
22.2600	5.6667
22.2800	4.6667
22.3000	5.3333
22.3200	6.3333
22.3400	3.3333
22.3600	5.0000
22.3800	3.0000
22.4000	3.0000
22.4200	2.0000
22.4400	3.6667
22.4600	4.6667
22.4800	6.3333
22.5000	4.0000
22.5200	5.3333